[ {
  "ACC" : 1,
  "CorrectKey" : "right",
  "ParticipantKey" : "right",
  "RT" : 1200,
  "age" : 24,
  "block" : "auditory",
  "catgory" : "emo",
  "conditionbs" : "up",
  "gender" : "M",
  "id" : 1,
  "stimuli" : "love",
  "trial" : 1,
  "wordsColorOrMen" : "Men1"
}, {
  "ACC" : 1,
  "CorrectKey" : "left",
  "ParticipantKey" : "left",
  "RT" : 2400,
  "catgory" : "neu",
  "conditionbs" : "up",
  "stimuli" : "car",
  "trial" : 2,
  "wordsColorOrMen" : "Men2"
}, {
  "ACC" : 0,
  "CorrectKey" : "left",
  "ParticipantKey" : "right",
  "RT" : 3560,
  "catgory" : "qq",
  "conditionbs" : "up",
  "stimuli" : "asdasd",
  "trial" : 3,
  "wordsColorOrMen" : "Men2"
}, {
  "ACC" : 0,
  "CorrectKey" : "right",
  "ParticipantKey" : "right",
  "RT" : 4600,
  "block" : "visualiiy",
  "catgory" : "fg",
  "conditionbs" : "up",
  "stimuli" : "asdasd",
  "trial" : 4,
  "wordsColorOrMen" : "Red"
}, {
  "ACC" : 0,
  "CorrectKey" : "left",
  "ParticipantKey" : "right",
  "RT" : 1000,
  "catgory" : "dd",
  "conditionbs" : "up",
  "stimuli" : "asdasd",
  "trial" : 5,
  "wordsColorOrMen" : "Blue"
}, {
  "ACC" : 0,
  "CorrectKey" : "right",
  "ParticipantKey" : "right",
  "RT" : 2000,
  "catgory" : "vz",
  "conditionbs" : "up",
  "stimuli" : "asdasd",
  "trial" : 6,
  "wordsColorOrMen" : "Red"
},
 {
  "ACC" : 0,
  "CorrectKey" : "right",
  "ParticipantKey" : "right",
  "RT" : 2000,
  "catgory" : "vz",
  "conditionbs" : "up",
  "stimuli" : "asdasd",
  "trial" : 6,
  "wordsColorOrMen" : "Red"
},
 {
  "ACC" : 0,
  "CorrectKey" : "right",
  "ParticipantKey" : "right",
  "RT" : 2000,
  "catgory" : "vz",
  "conditionbs" : "up",
  "stimuli" : "asdasd",
  "trial" : 6,
  "wordsColorOrMen" : "Red"
},
 {
  "ACC" : 0,
  "CorrectKey" : "right",
  "ParticipantKey" : "right",
  "RT" : 2000,
  "catgory" : "vz",
  "conditionbs" : "up",
  "stimuli" : "asdasd",
  "trial" : 6,
  "wordsColorOrMen" : "Red"
},
 {
  "ACC" : 0,
  "CorrectKey" : "right",
  "ParticipantKey" : "right",
  "RT" : 2000,
  "catgory" : "vz",
  "conditionbs" : "up",
  "stimuli" : "asdasd",
  "trial" : 6,
  "wordsColorOrMen" : "Red"
},
 {
  "ACC" : 0,
  "CorrectKey" : "right",
  "ParticipantKey" : "right",
  "RT" : 2000,
  "catgory" : "vz",
  "conditionbs" : "up",
  "stimuli" : "asdasd",
  "trial" : 6,
  "wordsColorOrMen" : "Red"
},
 {
  "ACC" : 0,
  "CorrectKey" : "right",
  "ParticipantKey" : "right",
  "RT" : 2000,
  "catgory" : "vz",
  "conditionbs" : "up",
  "stimuli" : "asdasd",
  "trial" : 6,
  "wordsColorOrMen" : "Red"
}, {
  "ACC" : 0,
  "CorrectKey" : "right",
  "ParticipantKey" : "right",
  "RT" : 2000,
  "catgory" : "vz",
  "conditionbs" : "up",
  "stimuli" : "asdasd",
  "trial" : 6,
  "wordsColorOrMen" : "Red"
} ,{
  "ACC" : 0,
  "CorrectKey" : "right",
  "ParticipantKey" : "right",
  "RT" : 2000,
  "catgory" : "vz",
  "conditionbs" : "up",
  "stimuli" : "asdasd",
  "trial" : 6,
  "wordsColorOrMen" : "Red"
}, {
  "ACC" : 0,
  "CorrectKey" : "right",
  "ParticipantKey" : "right",
  "RT" : 2000,
  "catgory" : "vz",
  "conditionbs" : "up",
  "stimuli" : "asdasd",
  "trial" : 6,
  "wordsColorOrMen" : "Red"
} ,{
  "ACC" : 0,
  "CorrectKey" : "right",
  "ParticipantKey" : "right",
  "RT" : 2000,
  "catgory" : "vz",
  "conditionbs" : "up",
  "stimuli" : "asdasd",
  "trial" : 6,
  "wordsColorOrMen" : "Red"
} ,{
  "ACC" : 0,
  "CorrectKey" : "right",
  "ParticipantKey" : "right",
  "RT" : 2000,
  "catgory" : "vz",
  "conditionbs" : "up",
  "stimuli" : "asdasd",
  "trial" : 6,
  "wordsColorOrMen" : "Red"
}, {
  "ACC" : 0,
  "CorrectKey" : "right",
  "ParticipantKey" : "right",
  "RT" : 2000,
  "catgory" : "vz",
  "conditionbs" : "up",
  "stimuli" : "asdasd",
  "trial" : 6,
  "wordsColorOrMen" : "Red"
}, {
  "ACC" : 0,
  "CorrectKey" : "right",
  "ParticipantKey" : "right",
  "RT" : 2000,
  "catgory" : "vz",
  "conditionbs" : "up",
  "stimuli" : "asdasd",
  "trial" : 6,
  "wordsColorOrMen" : "Red"
},
 {
  "ACC" : 0,
  "CorrectKey" : "right",
  "ParticipantKey" : "right",
  "RT" : 2000,
  "catgory" : "vz",
  "conditionbs" : "up",
  "stimuli" : "asdasd",
  "trial" : 6,
  "wordsColorOrMen" : "Red"
} ,{
  "ACC" : 0,
  "CorrectKey" : "right",
  "ParticipantKey" : "right",
  "RT" : 2000,
  "catgory" : "vz",
  "conditionbs" : "up",
  "stimuli" : "asdasd",
  "trial" : 6,
  "wordsColorOrMen" : "Red"
} ,{
  "ACC" : 0,
  "CorrectKey" : "right",
  "ParticipantKey" : "right",
  "RT" : 2000,
  "catgory" : "vz",
  "conditionbs" : "up",
  "stimuli" : "asdasd",
  "trial" : 6,
  "wordsColorOrMen" : "Red"
},
 {
  "ACC" : 0,
  "CorrectKey" : "right",
  "ParticipantKey" : "right",
  "RT" : 2000,
  "catgory" : "vz",
  "conditionbs" : "up",
  "stimuli" : "asdasd",
  "trial" : 6,
  "wordsColorOrMen" : "Red"
},
 {
  "ACC" : 0,
  "CorrectKey" : "right",
  "ParticipantKey" : "right",
  "RT" : 2000,
  "catgory" : "vz",
  "conditionbs" : "up",
  "stimuli" : "asdasd",
  "trial" : 6,
  "wordsColorOrMen" : "Red"
},
 {
  "ACC" : 0,
  "CorrectKey" : "right",
  "ParticipantKey" : "right",
  "RT" : 2000,
  "catgory" : "vz",
  "conditionbs" : "up",
  "stimuli" : "asdasd",
  "trial" : 6,
  "wordsColorOrMen" : "Red"
},
 {
  "ACC" : 0,
  "CorrectKey" : "right",
  "ParticipantKey" : "right",
  "RT" : 2000,
  "catgory" : "vz",
  "conditionbs" : "up",
  "stimuli" : "asdasd",
  "trial" : 6,
  "wordsColorOrMen" : "Red"
} ,{
  "ACC" : 0,
  "CorrectKey" : "right",
  "ParticipantKey" : "right",
  "RT" : 2000,
  "catgory" : "vz",
  "conditionbs" : "up",
  "stimuli" : "asdasd",
  "trial" : 6,
  "wordsColorOrMen" : "Red"
},
 {
  "ACC" : 0,
  "CorrectKey" : "right",
  "ParticipantKey" : "right",
  "RT" : 2000,
  "catgory" : "vz",
  "conditionbs" : "up",
  "stimuli" : "asdasd",
  "trial" : 6,
  "wordsColorOrMen" : "Red"
},
 {
  "ACC" : 0,
  "CorrectKey" : "right",
  "ParticipantKey" : "right",
  "RT" : 2000,
  "catgory" : "vz",
  "conditionbs" : "up",
  "stimuli" : "asdasd",
  "trial" : 6,
  "wordsColorOrMen" : "Red"
},
 {
  "ACC" : 0,
  "CorrectKey" : "right",
  "ParticipantKey" : "right",
  "RT" : 2000,
  "catgory" : "vz",
  "conditionbs" : "up",
  "stimuli" : "asdasd",
  "trial" : 6,
  "wordsColorOrMen" : "Red"
},
 {
  "ACC" : 0,
  "CorrectKey" : "right",
  "ParticipantKey" : "right",
  "RT" : 2000,
  "catgory" : "vz",
  "conditionbs" : "up",
  "stimuli" : "asdasd",
  "trial" : 6,
  "wordsColorOrMen" : "Red"
},
 {
  "ACC" : 0,
  "CorrectKey" : "right",
  "ParticipantKey" : "right",
  "RT" : 2000,
  "catgory" : "vz",
  "conditionbs" : "up",
  "stimuli" : "asdasd",
  "trial" : 6,
  "wordsColorOrMen" : "Red"
},
 {
  "ACC" : 0,
  "CorrectKey" : "right",
  "ParticipantKey" : "right",
  "RT" : 2000,
  "catgory" : "vz",
  "conditionbs" : "up",
  "stimuli" : "asdasd",
  "trial" : 6,
  "wordsColorOrMen" : "Red"
},
{
  "ACC" : 0,
  "CorrectKey" : "right",
  "ParticipantKey" : "right",
  "RT" : 2000,
  "catgory" : "vz",
  "conditionbs" : "up",
  "stimuli" : "asdasd",
  "trial" : 6,
  "wordsColorOrMen" : "Red"
},
{
  "ACC" : 0,
  "CorrectKey" : "right",
  "ParticipantKey" : "right",
  "RT" : 2000,
  "catgory" : "vz",
  "conditionbs" : "up",
  "stimuli" : "asdasd",
  "trial" : 6,
  "wordsColorOrMen" : "Red"
},
{
  "ACC" : 0,
  "CorrectKey" : "right",
  "ParticipantKey" : "right",
  "RT" : 2000,
  "catgory" : "vz",
  "conditionbs" : "up",
  "stimuli" : "asdasd",
  "trial" : 6,
  "wordsColorOrMen" : "Red"
},
{
  "ACC" : 0,
  "CorrectKey" : "right",
  "ParticipantKey" : "right",
  "RT" : 2000,
  "catgory" : "vz",
  "conditionbs" : "up",
  "stimuli" : "asdasd",
  "trial" : 6,
  "wordsColorOrMen" : "Red"
},
{
  "ACC" : 0,
  "CorrectKey" : "right",
  "ParticipantKey" : "right",
  "RT" : 2000,
  "catgory" : "vz",
  "conditionbs" : "up",
  "stimuli" : "asdasd",
  "trial" : 6,
  "wordsColorOrMen" : "Red"
},

 {
  "ACC" : 0,
  "CorrectKey" : "right",
  "ParticipantKey" : "right",
  "RT" : 2000,
  "catgory" : "vz",
  "conditionbs" : "up",
  "stimuli" : "asdasd",
  "trial" : 6,
  "wordsColorOrMen" : "Red"
},
 {
  "ACC" : 0,
  "CorrectKey" : "right",
  "ParticipantKey" : "right",
  "RT" : 2000,
  "catgory" : "vz",
  "conditionbs" : "up",
  "stimuli" : "asdasd",
  "trial" : 6,
  "wordsColorOrMen" : "Red"
},
{
  "ACC" : 0,
  "CorrectKey" : "right",
  "ParticipantKey" : "right",
  "RT" : 2000,
  "catgory" : "vz",
  "conditionbs" : "up",
  "stimuli" : "asdasd",
  "trial" : 6,
  "wordsColorOrMen" : "Red"
},
{
  "ACC" : 0,
  "CorrectKey" : "right",
  "ParticipantKey" : "right",
  "RT" : 2000,
  "catgory" : "vz",
  "conditionbs" : "up",
  "stimuli" : "asdasd",
  "trial" : 6,
  "wordsColorOrMen" : "Red"
},
{
  "ACC" : 0,
  "CorrectKey" : "right",
  "ParticipantKey" : "right",
  "RT" : 2000,
  "catgory" : "vz",
  "conditionbs" : "up",
  "stimuli" : "asdasd",
  "trial" : 6,
  "wordsColorOrMen" : "Red"
},
{
  "ACC" : 0,
  "CorrectKey" : "right",
  "ParticipantKey" : "right",
  "RT" : 2000,
  "catgory" : "vz",
  "conditionbs" : "up",
  "stimuli" : "asdasd",
  "trial" : 6,
  "wordsColorOrMen" : "Red"
},
{
  "ACC" : 0,
  "CorrectKey" : "right",
  "ParticipantKey" : "right",
  "RT" : 2000,
  "catgory" : "vz",
  "conditionbs" : "up",
  "stimuli" : "asdasd",
  "trial" : 6,
  "wordsColorOrMen" : "Red"
},

 {
  "ACC" : 0,
  "CorrectKey" : "right",
  "ParticipantKey" : "right",
  "RT" : 2000,
  "catgory" : "vz",
  "conditionbs" : "up",
  "stimuli" : "asdasd",
  "trial" : 6,
  "wordsColorOrMen" : "Red"
},
 {
  "ACC" : 0,
  "CorrectKey" : "right",
  "ParticipantKey" : "right",
  "RT" : 2000,
  "catgory" : "vz",
  "conditionbs" : "up",
  "stimuli" : "asdasd",
  "trial" : 6,
  "wordsColorOrMen" : "Red"
},
{
  "ACC" : 0,
  "CorrectKey" : "right",
  "ParticipantKey" : "right",
  "RT" : 2000,
  "catgory" : "vz",
  "conditionbs" : "up",
  "stimuli" : "asdasd",
  "trial" : 6,
  "wordsColorOrMen" : "Red"
},
{
  "ACC" : 0,
  "CorrectKey" : "right",
  "ParticipantKey" : "right",
  "RT" : 2000,
  "catgory" : "vz",
  "conditionbs" : "up",
  "stimuli" : "asdasd",
  "trial" : 6,
  "wordsColorOrMen" : "Red"
},
{
  "ACC" : 0,
  "CorrectKey" : "right",
  "ParticipantKey" : "right",
  "RT" : 2000,
  "catgory" : "vz",
  "conditionbs" : "up",
  "stimuli" : "asdasd",
  "trial" : 6,
  "wordsColorOrMen" : "Red"
},
{
  "ACC" : 0,
  "CorrectKey" : "right",
  "ParticipantKey" : "right",
  "RT" : 2000,
  "catgory" : "vz",
  "conditionbs" : "up",
  "stimuli" : "asdasd",
  "trial" : 6,
  "wordsColorOrMen" : "Red"
},
{
  "ACC" : 0,
  "CorrectKey" : "right",
  "ParticipantKey" : "right",
  "RT" : 2000,
  "catgory" : "vz",
  "conditionbs" : "up",
  "stimuli" : "asdasd",
  "trial" : 6,
  "wordsColorOrMen" : "Red"
},
{
  "ACC" : 0,
  "CorrectKey" : "right",
  "ParticipantKey" : "right",
  "RT" : 2000,
  "catgory" : "vz",
  "conditionbs" : "up",
  "stimuli" : "asdasd",
  "trial" : 6,
  "wordsColorOrMen" : "Red"
},

 {
  "ACC" : 0,
  "CorrectKey" : "right",
  "ParticipantKey" : "right",
  "RT" : 2000,
  "catgory" : "vz",
  "conditionbs" : "up",
  "stimuli" : "asdasd",
  "trial" : 6,
  "wordsColorOrMen" : "Red"
},
{
  "ACC" : 0,
  "CorrectKey" : "right",
  "ParticipantKey" : "right",
  "RT" : 2000,
  "catgory" : "vz",
  "conditionbs" : "up",
  "stimuli" : "asdasd",
  "trial" : 6,
  "wordsColorOrMen" : "Red"
},
{
  "ACC" : 0,
  "CorrectKey" : "right",
  "ParticipantKey" : "right",
  "RT" : 2000,
  "catgory" : "vz",
  "conditionbs" : "up",
  "stimuli" : "asdasd",
  "trial" : 6,
  "wordsColorOrMen" : "Red"
},
{
  "ACC" : 0,
  "CorrectKey" : "right",
  "ParticipantKey" : "right",
  "RT" : 2000,
  "catgory" : "vz",
  "conditionbs" : "up",
  "stimuli" : "asdasd",
  "trial" : 6,
  "wordsColorOrMen" : "Red"
},
{
  "ACC" : 0,
  "CorrectKey" : "right",
  "ParticipantKey" : "right",
  "RT" : 2000,
  "catgory" : "vz",
  "conditionbs" : "up",
  "stimuli" : "asdasd",
  "trial" : 6,
  "wordsColorOrMen" : "Red"
},
{
  "ACC" : 0,
  "CorrectKey" : "right",
  "ParticipantKey" : "right",
  "RT" : 2000,
  "catgory" : "vz",
  "conditionbs" : "up",
  "stimuli" : "asdasd",
  "trial" : 6,
  "wordsColorOrMen" : "Red"
},

{
  "ACC" : 0,
  "CorrectKey" : "right",
  "ParticipantKey" : "right",
  "RT" : 2000,
  "catgory" : "vz",
  "conditionbs" : "up",
  "stimuli" : "asdasd",
  "trial" : 6,
  "wordsColorOrMen" : "Red"
},
{
  "ACC" : 0,
  "CorrectKey" : "right",
  "ParticipantKey" : "right",
  "RT" : 2000,
  "catgory" : "vz",
  "conditionbs" : "up",
  "stimuli" : "asdasd",
  "trial" : 6,
  "wordsColorOrMen" : "Red"
},
{
  "ACC" : 0,
  "CorrectKey" : "right",
  "ParticipantKey" : "right",
  "RT" : 2000,
  "catgory" : "vz",
  "conditionbs" : "up",
  "stimuli" : "asdasd",
  "trial" : 6,
  "wordsColorOrMen" : "Red"
},
{
  "ACC" : 0,
  "CorrectKey" : "right",
  "ParticipantKey" : "right",
  "RT" : 2000,
  "catgory" : "vz",
  "conditionbs" : "up",
  "stimuli" : "asdasd",
  "trial" : 6,
  "wordsColorOrMen" : "Red"
},
{
  "ACC" : 0,
  "CorrectKey" : "right",
  "ParticipantKey" : "right",
  "RT" : 2000,
  "catgory" : "vz",
  "conditionbs" : "up",
  "stimuli" : "asdasd",
  "trial" : 6,
  "wordsColorOrMen" : "Red"
},
{
  "ACC" : 0,
  "CorrectKey" : "right",
  "ParticipantKey" : "right",
  "RT" : 2000,
  "catgory" : "vz",
  "conditionbs" : "up",
  "stimuli" : "asdasd",
  "trial" : 6,
  "wordsColorOrMen" : "Red"
},
{
  "ACC" : 0,
  "CorrectKey" : "right",
  "ParticipantKey" : "right",
  "RT" : 2000,
  "catgory" : "vz",
  "conditionbs" : "up",
  "stimuli" : "asdasd",
  "trial" : 6,
  "wordsColorOrMen" : "Red"
},
{
  "ACC" : 0,
  "CorrectKey" : "right",
  "ParticipantKey" : "right",
  "RT" : 2000,
  "catgory" : "vz",
  "conditionbs" : "up",
  "stimuli" : "asdasd",
  "trial" : 6,
  "wordsColorOrMen" : "Red"
},
{
  "ACC" : 0,
  "CorrectKey" : "right",
  "ParticipantKey" : "right",
  "RT" : 2000,
  "catgory" : "vz",
  "conditionbs" : "up",
  "stimuli" : "asdasd",
  "trial" : 6,
  "wordsColorOrMen" : "Red"
},

 {
  "ACC" : 0,
  "CorrectKey" : "right",
  "ParticipantKey" : "right",
  "RT" : 2000,
  "catgory" : "vz",
  "conditionbs" : "up",
  "stimuli" : "asdasd",
  "trial" : 6,
  "wordsColorOrMen" : "Red"
},
{
  "ACC" : 0,
  "CorrectKey" : "right",
  "ParticipantKey" : "right",
  "RT" : 2000,
  "catgory" : "vz",
  "conditionbs" : "up",
  "stimuli" : "asdasd",
  "trial" : 6,
  "wordsColorOrMen" : "Red"
},
{
  "ACC" : 0,
  "CorrectKey" : "right",
  "ParticipantKey" : "right",
  "RT" : 2000,
  "catgory" : "vz",
  "conditionbs" : "up",
  "stimuli" : "asdasd",
  "trial" : 6,
  "wordsColorOrMen" : "Red"
},
{
  "ACC" : 0,
  "CorrectKey" : "right",
  "ParticipantKey" : "right",
  "RT" : 2000,
  "catgory" : "vz",
  "conditionbs" : "up",
  "stimuli" : "asdasd",
  "trial" : 6,
  "wordsColorOrMen" : "Red"
},
{
  "ACC" : 0,
  "CorrectKey" : "right",
  "ParticipantKey" : "right",
  "RT" : 2000,
  "catgory" : "vz",
  "conditionbs" : "up",
  "stimuli" : "asdasd",
  "trial" : 6,
  "wordsColorOrMen" : "Red"
},

{
  "ACC" : 0,
  "CorrectKey" : "right",
  "ParticipantKey" : "right",
  "RT" : 2000,
  "catgory" : "vz",
  "conditionbs" : "up",
  "stimuli" : "asdasd",
  "trial" : 6,
  "wordsColorOrMen" : "Red"
},
{
  "ACC" : 0,
  "CorrectKey" : "right",
  "ParticipantKey" : "right",
  "RT" : 2000,
  "catgory" : "vz",
  "conditionbs" : "up",
  "stimuli" : "asdasd",
  "trial" : 6,
  "wordsColorOrMen" : "Red"
},
{
  "ACC" : 0,
  "CorrectKey" : "right",
  "ParticipantKey" : "right",
  "RT" : 2000,
  "catgory" : "vz",
  "conditionbs" : "up",
  "stimuli" : "asdasd",
  "trial" : 6,
  "wordsColorOrMen" : "Red"
},

 {
  "ACC" : 0,
  "CorrectKey" : "right",
  "ParticipantKey" : "right",
  "RT" : 2000,
  "catgory" : "vz",
  "conditionbs" : "up",
  "stimuli" : "asdasd",
  "trial" : 6,
  "wordsColorOrMen" : "Red"
},
{
  "ACC" : 0,
  "CorrectKey" : "right",
  "ParticipantKey" : "right",
  "RT" : 2000,
  "catgory" : "vz",
  "conditionbs" : "up",
  "stimuli" : "asdasd",
  "trial" : 6,
  "wordsColorOrMen" : "Red"
},
{
  "ACC" : 0,
  "CorrectKey" : "right",
  "ParticipantKey" : "right",
  "RT" : 2000,
  "catgory" : "vz",
  "conditionbs" : "up",
  "stimuli" : "asdasd",
  "trial" : 6,
  "wordsColorOrMen" : "Red"
},

 {
  "ACC" : 0,
  "CorrectKey" : "right",
  "ParticipantKey" : "right",
  "RT" : 2000,
  "catgory" : "vz",
  "conditionbs" : "up",
  "stimuli" : "asdasd",
  "trial" : 6,
  "wordsColorOrMen" : "Red"
}
]